Folder: MeshRenderer_Lite/CSV_TO_TGA/CSV_TO_TGA

File: G20_pi_2_64.csv
64
0
2.44153,2.31822,2.21236,2.11519,2.02461,1.93952,1.85921,1.78317,1.71099,1.64237,1.57703,1.51473,1.45529,1.39851,1.34424,1.29234,1.24268,1.19513,1.14958,1.10594,1.0641,1.02399,0.985505,0.948582,0.913145,0.879126,0.84646,0.815088,0.784951,0.755995,0.72817,0.701426,0.675717,0.651,0.627232,0.604375,0.58239,0.561242,0.540896,0.521319,0.502481,0.484351,0.466901,0.450104,0.433935,0.418367,0.403378,0.388945,0.375046,0.36166,0.348768,0.336349,0.324387,0.312863,0.30176,0.291063,0.280756,0.270825,0.261254,0.25203,0.243141,0.234573,0.226315,0.218355
1.67637,1.58043,1.50089,1.42904,1.36282,1.30119,1.24346,1.18916,1.13793,1.08949,1.04359,1.00003,0.958632,0.919254,0.881757,0.846022,0.81194,0.779413,0.748353,0.718676,0.690307,0.663176,0.63722,0.612376,0.588591,0.56581,0.543984,0.523069,0.50302,0.483797,0.465361,0.447677,0.430709,0.414426,0.398798,0.383794,0.369387,0.355553,0.342265,0.3295,0.317236,0.305452,0.294127,0.283242,0.272778,0.262719,0.253047,0.243747,0.234803,0.2262,0.217926,0.209966,0.202308,0.19494,0.18785,0.181027,0.174461,0.168141,0.162058,0.156202,0.150565,0.145138,0.139912,0.13488
0.973862,0.904246,0.849911,0.802219,0.759182,0.719798,0.68344,0.649675,0.618178,0.588696,0.561026,0.534996,0.510464,0.487306,0.465415,0.444695,0.425064,0.406445,0.388772,0.371984,0.356024,0.340842,0.326391,0.31263,0.299516,0.287016,0.275094,0.263719,0.252862,0.242496,0.232594,0.223133,0.21409,0.205445,0.197178,0.189269,0.181703,0.174461,0.167529,0.160892,0.154536,0.148447,0.142614,0.137025,0.131669,0.126534,0.121611,0.116891,0.112365,0.108023,0.103858,0.0998616,0.0960271,0.0923473,0.0888153,0.0854249,0.08217,0.0790448,0.0760438,0.0731618,0.0703938,0.067735,0.0651807,0.0627267
0.619899,0.565008,0.524629,0.490207,0.459809,0.432475,0.407619,0.38484,0.363842,0.344401,0.326334,0.309497,0.293765,0.279035,0.265219,0.252237,0.240023,0.228516,0.217663,0.207416,0.197732,0.188572,0.179901,0.171687,0.163901,0.156515,0.149505,0.142847,0.136522,0.130509,0.124791,0.11935,0.114171,0.109239,0.104542,0.100065,0.0957985,0.0917299,0.0878491,0.0841464,0.0806127,0.0772393,0.0740182,0.0709417,0.0680026,0.0651942,0.0625099,0.0599439,0.0574904,0.055144,0.0528995,0.0507522,0.0486975,0.046731,0.0448487,0.0430467,0.0413211,0.0396687,0.0380859,0.0365697,0.0351171,0.0337252,0.0323913,0.0311127
0.452156,0.40536,0.372525,0.345181,0.321447,0.300403,0.281494,0.264344,0.248684,0.234305,0.221048,0.20878,0.197394,0.186799,0.17692,0.167688,0.159048,0.150949,0.143346,0.1362,0.129477,0.123143,0.117172,0.111537,0.106215,0.101185,0.0964272,0.0919241,0.0876593,0.0836179,0.0797861,0.076151,0.0727009,0.0694248,0.0663126,0.0633547,0.0605425,0.0578677,0.0553226,0.0529002,0.0505937,0.0483968,0.0463038,0.0443091,0.0424076,0.0405943,0.0388648,0.0372148,0.0356402,0.0341372,0.0327022,0.0313319,0.030023,0.0287725,0.0275777,0.0264357,0.0253441,0.0243005,0.0233024,0.0223479,0.0214348,0.0205612,0.0197253,0.0189253
0.35679,0.315242,0.287208,0.264307,0.244708,0.227527,0.212237,0.198484,0.186018,0.174649,0.164228,0.15464,0.145786,0.137587,0.129975,0.122893,0.11629,0.110123,0.104355,0.0989513,0.0938831,0.0891237,0.0846492,0.0804385,0.0764723,0.072733,0.0692049,0.0658735,0.0627256,0.0597491,0.0569328,0.0542667,0.0517411,0.0493475,0.0470778,0.0449246,0.0428809,0.0409403,0.0390969,0.0373451,0.0356797,0.0340959,0.032589,0.0311551,0.0297899,0.0284899,0.0272516,0.0260717,0.0249471,0.0238749,0.0228525,0.0218773,0.0209469,0.020059,0.0192114,0.0184023,0.0176296,0.0168916,0.0161866,0.0155129,0.0148691,0.0142538,0.0136654,0.0131029
0.295375,0.257587,0.232931,0.213117,0.19636,0.18181,0.168963,0.157488,0.147149,0.137771,0.129218,0.121383,0.114178,0.107531,0.101381,0.0956785,0.0903783,0.0854426,0.0808384,0.0765365,0.0725114,0.0687403,0.0652028,0.0618809,0.058758,0.0558196,0.0530522,0.0504436,0.0479829,0.0456599,0.0434654,0.0413909,0.0394288,0.0375717,0.0358131,0.0341469,0.0325674,0.0310695,0.0296482,0.028299,0.0270178,0.0258006,0.0246439,0.0235441,0.0224981,0.021503,0.020556,0.0196544,0.0187959,0.017978,0.0171988,0.0164561,0.0157481,0.0150729,0.0144289,0.0138145,0.0132283,0.0126687,0.0121344,0.0116243,0.0111371,0.0106717,0.010227,0.00980202
0.25312,0.218161,0.196006,0.178448,0.163749,0.151087,0.139982,0.13012,0.121279,0.113295,0.106043,0.0994235,0.0933566,0.0877769,0.0826297,0.0778687,0.0734547,0.0693537,0.0655363,0.0619769,0.0586529,0.0555442,0.0526332,0.0499039,0.0473423,0.0449354,0.0426718,0.040541,0.0385335,0.0366408,0.0348548,0.0331684,0.0315751,0.0300686,0.0286435,0.0272945,0.026017,0.0248065,0.0236589,0.0225704,0.0215376,0.0205572,0.0196262,0.0187417,0.017901,0.0171018,0.0163416,0.0156185,0.0149302,0.014275,0.0136511,0.0130568,0.0124905,0.0119508,0.0114363,0.0109457,0.0104777,0.0100313,0.00960534,0.00919875,0.00881061,0.00843998,0.00808602,0.0077479
0.222863,0.190092,0.169838,0.153977,0.140812,0.129548,0.119725,0.111042,0.10329,0.0963159,0.0900015,0.0842551,0.0790028,0.0741842,0.0697491,0.0656556,0.0618678,0.0583551,0.0550909,0.0520522,0.0492187,0.0465725,0.0440979,0.0417808,0.0396086,0.03757,0.0356548,0.0338539,0.0321588,0.0305622,0.0290569,0.0276369,0.0262962,0.0250297,0.0238325,0.0227001,0.0216284,0.0206136,0.0196521,0.0187408,0.0178766,0.0170568,0.0162786,0.0155397,0.0148378,0.0141709,0.0135368,0.0129339,0.0123604,0.0118147,0.0112952,0.0108006,0.0103295,0.00988069,0.00945301,0.00904533,0.00865663,0.00828594,0.00793233,0.00759494,0.00727295,0.0069656,0.00667214,0.00639191
0.200676,0.169616,0.150827,0.136262,0.124259,0.114047,0.105182,0.0973767,0.0904326,0.0842036,0.0785792,0.073473,0.0688161,0.0645522,0.0606349,0.0570253,0.0536906,0.0506025,0.0477368,0.0450724,0.042591,0.0402762,0.0381137,0.0360909,0.0341963,0.0324199,0.0307524,0.0291856,0.0277121,0.0263251,0.0250185,0.0237866,0.0226243,0.021527,0.0204902,0.0195102,0.0185832,0.0177058,0.016875,0.0160879,0.0153418,0.0146343,0.0139631,0.013326,0.012721,0.0121464,0.0116003,0.0110812,0.0105876,0.0101181,0.00967128,0.00924598,0.00884104,0.00845537,0.00808794,0.00773781,0.00740406,0.00708584,0.00678237,0.00649289,0.00621669,0.0059531,0.00570149,0.00546126
0.18423,0.154509,0.136851,0.123277,0.112158,0.102741,0.094597,0.08745,0.0811089,0.0754346,0.070322,0.0656895,0.0614719,0.0576164,0.0540795,0.0508248,0.0478216,0.0450438,0.0424687,0.0400769,0.0378514,0.0357771,0.033841,0.0320312,0.0303375,0.0287504,0.0272616,0.0258637,0.0245497,0.0233135,0.0221496,0.0210528,0.0200185,0.0190425,0.0181207,0.0172497,0.0164262,0.0156471,0.0149096,0.0142112,0.0135493,0.0129219,0.0123269,0.0117623,0.0112263,0.0107173,0.0102338,0.00977432,0.00933747,0.00892201,0.00852677,0.00815065,0.00779261,0.00745167,0.00712693,0.00681754,0.00652268,0.0062416,0.0059736,0.00571799,0.00547415,0.00524148,0.00501943,0.00480746
0.172072,0.143385,0.126592,0.11377,0.103316,0.0944962,0.0868915,0.0802348,0.0743415,0.0690781,0.0643438,0.0600605,0.0561662,0.0526106,0.0493526,0.0463576,0.0435967,0.0410452,0.0386819,0.0364885,0.0344491,0.0325495,0.0307775,0.0291222,0.0275739,0.0261238,0.0247642,0.0234881,0.0222893,0.0211619,0.0201008,0.0191013,0.0181591,0.0172702,0.0164311,0.0156385,0.0148892,0.0141806,0.01351,0.0128751,0.0122737,0.0117036,0.0111631,0.0106503,0.0101637,0.00970169,0.00926286,0.0088459,0.00844957,0.00807272,0.00771428,0.00737323,0.00704862,0.00673958,0.00644526,0.00616489,0.00589773,0.00564309,0.00540033,0.00516882,0.00494801,0.00473734,0.0045363,0.00434441
0.163266,0.135355,0.119204,0.106938,0.0969736,0.0885908,0.0813799,0.0750801,0.0695122,0.0645466,0.060086,0.0560549,0.0523937,0.0490541,0.0459966,0.0431881,0.040601,0.0382117,0.036,0.0339484,0.0320419,0.030267,0.0286121,0.0270668,0.025622,0.0242694,0.0230017,0.0218122,0.0206951,0.0196449,0.0186568,0.0177263,0.0168493,0.0160223,0.0152417,0.0145045,0.0138078,0.013149,0.0125257,0.0119357,0.0113769,0.0108474,0.0103453,0.00986917,0.00941734,0.00898843,0.0085811,0.00819413,0.00782636,0.00747671,0.00714418,0.00682782,0.00652675,0.00624015,0.00596723,0.00570728,0.0054596,0.00522355,0.00499854,0.00478398,0.00457934,0.00438412,0.00419784,0.00402006
0.157201,0.12984,0.11414,0.102262,0.0926387,0.0845594,0.0776212,0.0715682,0.0662247,0.0614642,0.0571918,0.0533339,0.0498326,0.046641,0.0437207,0.0410397,0.0385713,0.0362927,0.0341844,0.0322296,0.0304136,0.0287235,0.0271483,0.0256779,0.0243034,0.023017,0.0218116,0.020681,0.0196193,0.0186215,0.0176828,0.016799,0.0159663,0.015181,0.01444,0.0137403,0.0130792,0.0124542,0.0118628,0.0113032,0.0107732,0.010271,0.00979494,0.00934348,0.00891513,0.00850857,0.0081225,0.00775575,0.00740724,0.00707593,0.00676086,0.00646115,0.00617594,0.00590446,0.00564597,0.00539975,0.0051652,0.00494167,0.0047286,0.00452545,0.0043317,0.00414689,0.00397054,0.00380225
0.153488,0.126473,0.111052,0.0994144,0.0900016,0.0821091,0.0753384,0.0694366,0.0642305,0.0595955,0.055438,0.0516859,0.0482821,0.0451806,0.0423439,0.0397405,0.0373444,0.0351331,0.0330874,0.0311914,0.0294303,0.0277918,0.0262648,0.0248397,0.0235079,0.0222613,0.0210938,0.0199989,0.0189708,0.0180046,0.0170958,0.0162403,0.0154343,0.0146743,0.0139572,0.0132802,0.0126405,0.0120358,0.0114638,0.0109224,0.0104098,0.00992408,0.00946372,0.00902716,0.00861298,0.00821988,0.00784662,0.00749207,0.00715516,0.00683489,0.00653035,0.00624066,0.00596501,0.00570264,0.00545282,0.0052149,0.00498824,0.00477225,0.00456637,0.00437008,0.00418288,0.00400432,0.00383396,0.00367138
0.151927,0.125057,0.109756,0.0982192,0.0888955,0.0810818,0.0743818,0.0685437,0.0633956,0.0588133,0.0547042,0.0509965,0.0476336,0.04457,0.0417683,0.0391971,0.0368316,0.0346485,0.0326293,0.0307577,0.0290197,0.0274027,0.0258959,0.0244898,0.0231758,0.0219462,0.0207944,0.0197142,0.0187002,0.0177472,0.0168509,0.0160072,0.0152124,0.0144629,0.0137558,0.0130883,0.0124575,0.0118613,0.0112974,0.0107637,0.0102583,0.00977948,0.00932565,0.00889532,0.00848705,0.00809956,0.00773165,0.00738217,0.0070501,0.00673445,0.0064343,0.0061488,0.00587713,0.00561855,0.00537236,0.00513789,0.00491452,0.00470167,0.00449879,0.00430536,0.0041209,0.00394495,0.00377708,0.00361687
0.151862,0.124998,0.109702,0.0981697,0.0888496,0.0810393,0.0743422,0.0685067,0.063361,0.058781,0.0546738,0.050968,0.0476068,0.0445448,0.0417445,0.039175,0.0368104,0.0346284,0.0326103,0.0307398,0.0290027,0.0273866,0.0258807,0.0244753,0.023162,0.0219332,0.0207821,0.0197025,0.018689,0.0177366,0.0168408,0.0159976,0.0152032,0.0144542,0.0137475,0.0130803,0.01245,0.0118541,0.0112905,0.0107571,0.010252,0.0097735,0.00931995,0.00888987,0.00848184,0.00809459,0.0077269,0.00737764,0.00704577,0.00673031,0.00643034,0.006145,0.0058735,0.00561508,0.00536904,0.00513471,0.00491148,0.00469876,0.004496,0.00430269,0.00411834,0.0039425,0.00377472,0.00361462